File: v1/battery_training_data_v6_fawkes.csv
current,voltage,temperature,cell_voltage_min,soc,cycle_count,internal_resistance,charge_capacity,discharge_capacity,c_rate,dod,soh,cell_voltage_max,mfg_rated_cycles,calendar_age_days,chemistry_type
10.49,3.7024,28.6,3.6904,0.5908,0,0.026498,42.53,42.06,0.2419,0.3588,0.9945,3.7144,1768,48,0.0
13.69,4.0343,37.7,4.0068,0.8505,289,0.031024,41.22,38.85,0.3228,0.3132,0.9428,4.0618,1768,491,0.0
-21.36,3.5796,37.5,3.573,0.5116,242,0.032539,40.08,40.25,0.5271,0.7755,0.9398,3.5861,1682,469,0.0
-10.61,3.7067,33.7,3.6976,0.6045,1035,0.035787,35.89,36.22,0.2515,0.3864,0.8868,3.7159,1682,1709,0.0
45.65,3.8835,28.1,3.8827,0.732,84,0.035737,58.63,60.37,0.7914,0.3875,0.9806,3.8844,2762,338,0.0
-18.87,3.7942,26.7,3.7796,0.671,223,0.030159,61.73,62.45,0.2892,0.4852,0.9732,3.8089,2762,619,0.0
6.55,4.0314,43.6,4.0266,0.8674,164,0.031127,44.09,44.18,0.1312,0.3916,0.9285,4.0361,995,268,0.0
-30.75,3.9719,22.2,3.9693,0.8013,66,0.029764,63.36,61.73,0.494,0.6258,0.9813,3.9746,2497,337,0.0
14.43,3.3913,5.0,3.382,0.3144,365,0.031368,58.85,60.28,0.2294,0.7091,0.9663,3.4005,2497,1427,0.0
-32.35,3.2452,32.4,3.2342,0.4959,390,0.02725,61.28,61.56,0.5644,0.5453,0.9833,3.2562,3264,1098,1.0
10.78,3.1517,26.6,3.129,0.4018,1134,0.031452,58.93,61.22,0.1623,0.4115,0.966,3.1744,3264,2915,1.0
-13.67,3.9698,13.8,3.9563,0.8057,192,0.026715,51.93,51.09,0.2911,0.05,0.9799,3.9833,2742,326,0.0
-20.76,3.9289,38.1,3.9131,0.7672,74,0.031595,53.53,54.11,0.4083,0.6422,0.9683,3.9447,1170,107,0.0
-25.65,3.4747,19.3,3.4604,0.3987,627,0.032461,52.42,51.76,0.4727,0.5935,0.9337,3.489,1170,649,0.0
25.45,3.5773,31.5,3.5686,0.4941,39,0.029502,54.09,52.88,0.4539,0.326,0.9655,3.5861,1094,105,0.0
-30.62,3.8881,28.7,3.8784,0.7571,127,0.028521,53.56,51.84,0.5636,0.5408,0.9672,3.8978,1094,172,0.0
27.45,3.7359,32.6,3.7309,0.6082,65,0.028341,55.33,53.73,0.5309,0.2979,0.986,3.741,2624,182,0.0
25.94,3.6595,41.8,3.6078,0.5637,5,0.02953,50.26,50.4,0.4987,0.2694,0.9863,3.7112,1673,178,0.0
7.45,3.6823,24.6,3.672,0.5635,107,0.035128,48.08,50.2,0.1381,0.5085,0.9674,3.6926,1673,357,0.0
-18.41,3.6326,23.2,3.6096,0.5087,63,0.026245,49.47,49.96,0.3747,0.2687,0.9781,3.6555,1518,183,0.0
13.35,3.8917,20.2,3.8842,0.7482,240,0.032056,48.21,50.77,0.2612,0.4009,0.962,3.8992,1518,331,0.0
-22.1,3.4275,21.6,3.4157,0.3673,230,0.032627,43.39,44.36,0.455,0.4749,0.9398,3.4392,1031,546,0.0
-11.86,3.5582,24.0,3.556,0.4623,580,0.036925,41.88,42.38,0.2672,0.5214,0.8941,3.5604,1031,1180,0.0
-42.72,3.5765,29.4,3.5535,0.4837,63,0.030227,64.13,66.44,0.6548,0.5568,0.9768,3.5994,2172,323,0.0
-19.76,3.7071,19.7,3.6813,0.5891,127,0.031329,43.38,44.35,0.4254,0.3671,0.9576,3.7329,997,215,0.0
-24.05,4.1255,12.8,4.1208,0.9184,597,0.031623,42.49,41.03,0.5078,0.1378,0.916,4.1302,997,884,0.0
26.64,3.6114,37.3,3.6038,0.5231,516,0.031092,58.27,57.72,0.4567,0.7752,0.9579,3.6189,2653,543,0.0
29.96,3.5801,18.6,3.5795,0.4957,1412,0.029733,59.18,56.84,0.5198,0.4133,0.9521,3.5806,2653,1379,0.0
13.31,4.0142,39.5,3.9996,0.8394,346,0.033968,44.63,46.31,0.2844,0.05,0.8986,4.0288,1118,464,0.0
20.51,3.985,28.7,3.9513,0.8256,35,0.028496,53.2,52.96,0.3898,0.1775,0.981,4.0187,2222,139,0.0
-15.59,3.8162,17.9,3.7825,0.6653,227,0.030706,51.53,50.66,0.3004,0.1687,0.9746,3.8499,2222,292,0.0
-23.09,3.956,23.5,3.9555,0.7912,176,0.030302,46.29,45.9,0.4626,0.4306,0.9419,3.9566,825,317,0.0
-10.48,3.5256,17.4,3.5149,0.4397,534,0.037383,44.0,44.08,0.2194,0.7907,0.9124,3.5362,825,664,0.0
-13.31,3.313,20.0,3.3117,0.2605,189,0.028981,40.12,38.52,0.3534,0.4647,0.9694,3.3143,1362,173,0.0
22.87,3.6549,28.3,3.654,0.5427,34,0.029782,49.86,50.82,0.4207,0.625,0.9653,3.6558,1129,257,0.0
-54.69,3.7151,23.2,3.6723,0.5836,376,0.037442,47.52,47.36,1.0786,0.7165,0.8978,3.7579,1129,1605,0.0
-28.78,3.6201,21.3,3.5866,0.5172,41,0.028393,54.66,52.05,0.54,0.3326,0.9823,3.6535,2191,201,0.0
-17.71,3.6176,20.3,3.6172,0.5141,143,0.028266,53.59,55.58,0.3347,0.6175,0.9772,3.6181,2191,330,0.0
23.05,3.9789,20.2,3.9749,0.8033,579,0.033101,57.79,54.81,0.3692,0.31,0.9459,3.9829,1724,918,0.0
7.19,3.226,27.4,3.2247,0.5115,2,0.027586,60.55,62.3,0.119,0.4614,0.9981,3.2274,3257,163,1.0
43.0,3.513,24.8,3.4936,0.8495,138,0.028989,60.68,61.67,0.7391,0.2301,0.9928,3.5323,3257,335,1.0
-13.0,3.7244,45.0,3.723,0.6082,10,0.029166,48.82,47.62,0.2507,0.4547,0.963,3.7258,887,92,0.0
23.9,3.6474,25.6,3.595,0.5407,41,0.027453,48.38,49.83,0.4732,0.337,0.9637,3.6997,887,142,0.0
24.2,3.8115,31.8,3.8064,0.6813,270,0.033274,48.91,52.45,0.4386,0.886,0.9307,3.8166,915,244,0.0
-22.7,3.6809,25.9,3.6676,0.5802,702,0.035216,49.15,49.79,0.3994,0.4139,0.8924,3.6942,915,566,0.0
-16.23,3.3879,34.7,3.3488,0.6456,172,0.024909,103.4,106.48,0.1692,0.7626,0.9871,3.4269,4113,797,1.0
29.02,3.9391,31.3,3.938,0.7785,172,0.033286,52.02,50.75,0.5959,0.619,0.956,3.9402,1540,341,0.0
-17.7,3.6444,30.6,3.6312,0.5358,899,0.037178,48.17,45.12,0.3315,0.5234,0.8922,3.6577,1540,1413,0.0
26.02,3.9295,28.5,3.9244,0.7876,447,0.029014,55.28,55.76,0.4374,0.8853,0.9648,3.9347,2159,427,0.0
47.33,3.9796,27.8,3.9774,0.8112,1273,0.034609,52.44,50.57,0.7867,0.2908,0.9183,3.9818,2159,1155,0.0
-11.32,3.8318,24.4,3.8278,0.6968,438,0.032066,45.34,44.71,0.2449,0.5069,0.9318,3.8357,1429,976,0.0
-29.91,3.7352,25.0,3.7213,0.6163,16,0.028603,44.31,45.11,0.668,0.8446,0.9735,3.7491,1067,154,0.0
-8.41,3.7153,28.7,3.7008,0.5815,124,0.028824,45.42,46.71,0.1752,0.346,0.9552,3.7299,1067,244,0.0
17.0,3.7543,26.4,3.7513,0.63,59,0.027261,39.95,39.34,0.4415,0.276,0.9593,3.7574,1582,323,0.0
-6.3,3.9039,36.1,3.8944,0.7587,189,0.032577,36.6,38.23,0.1509,0.05,0.9382,3.9134,1582,949,0.0
-39.3,3.4043,25.3,3.3945,0.3251,177,0.031794,49.51,51.36,0.7411,0.2418,0.9685,3.4141,1647,329,0.0
28.2,3.3177,26.8,3.3151,0.2449,31,0.032528,52.47,52.53,0.504,0.8846,0.9692,3.3204,999,181,0.0
21.39,3.9048,44.3,3.9006,0.7544,503,0.038534,44.62,46.69,0.3934,0.5975,0.8398,3.909,999,556,0.0
21.41,3.9006,40.9,3.8855,0.7738,34,0.031551,52.98,51.72,0.381,0.6,0.9744,3.9157,1103,160,0.0
-8.71,3.9298,31.5,3.9127,0.7559,127,0.029794,49.12,50.5,0.1511,0.2304,0.949,3.9469,1103,264,0.0
-62.76,3.1603,29.5,3.1412,0.421,27,0.024978,85.11,84.78,0.696,0.7352,0.991,3.1794,5886,142,1.0
-14.43,3.143,13.2,3.0671,0.3752,67,0.024496,86.76,82.22,0.1666,0.6378,0.9872,3.2189,5886,171,1.0
-78.18,3.84,31.3,3.838,0.6959,634,0.036224,43.38,41.48,1.9151,0.5644,0.8847,3.842,1368,628,0.0
20.45,3.601,35.4,3.5951,0.4942,154,0.034986,41.74,42.77,0.4516,0.7128,0.9327,3.607,1138,444,0.0
20.48,3.2283,24.8,3.2224,0.1883,691,0.039222,39.34,40.09,0.4621,0.6012,0.8992,3.2342,1138,1442,0.0
-28.44,3.4285,24.7,3.4164,0.3482,393,0.031286,53.91,55.1,0.5663,0.6071,0.9642,3.4407,2928,1180,0.0
34.26,3.6782,38.6,3.6667,0.5823,1057,0.036739,50.63,50.2,0.6495,0.4326,0.8912,3.6897,2928,2892,0.0
-11.95,3.5049,39.5,3.5047,0.4255,158,0.031163,45.61,44.81,0.2331,0.4237,0.9361,3.5051,1088,252,0.0
-12.46,3.5948,33.4,3.5937,0.4949,8,0.030753,48.44,50.0,0.2377,0.3571,0.9772,3.5959,1549,149,0.0
-24.07,3.9847,22.8,3.9612,0.8222,51,0.031847,48.56,47.26,0.5061,0.3177,0.9769,4.0082,1549,192,0.0
-47.1,3.1088,30.9,3.107,0.3616,117,0.021995,86.6,85.66,0.5454,0.6748,0.993,3.1106,4526,287,1.0
32.6,3.443,39.6,3.4389,0.7423,347,0.024097,88.44,89.33,0.3567,0.2051,0.9946,3.447,4526,634,1.0
-46.73,3.4781,10.8,3.4412,0.3974,319,0.031144,44.73,45.34,0.9137,0.6855,0.9551,3.5149,1026,386,0.0
46.66,3.4046,23.8,3.3784,0.729,8,0.02616,97.39,99.53,0.4706,0.5906,0.9936,3.4307,4439,100,1.0
-49.98,3.01,18.9,3.0092,0.2153,77,0.023719,97.44,96.57,0.5044,0.523,0.993,3.0108,4439,213,1.0
-14.63,3.8855,40.5,3.8681,0.728,22,0.033294,54.14,56.27,0.2561,0.3473,0.9868,3.9029,1912,184,0.0
20.57,3.4386,21.1,3.4372,0.3788,73,0.031687,55.87,54.56,0.3769,0.5109,0.9749,3.4399,1912,247,0.0
38.4,3.8249,32.2,3.8145,0.7018,132,0.032583,45.15,42.69,0.7314,0.3209,0.9477,3.8353,1051,374,0.0
-7.99,3.9402,43.1,3.932,0.7832,1,0.031254,60.33,58.22,0.1334,0.1373,0.9868,3.9485,1872,78,0.0
-38.71,3.974,42.6,3.9351,0.8114,39,0.027596,61.13,58.41,0.6472,0.3621,0.9866,4.0128,1872,131,0.0
14.44,3.9466,27.0,3.919,0.7596,56,0.027121,65.55,68.73,0.2185,0.3754,0.9875,3.9743,2430,194,0.0
-7.0,3.8669,31.4,3.8541,0.7372,223,0.030654,67.31,69.21,0.1031,0.2591,0.9781,3.8798,2430,349,0.0
-12.85,3.316,42.3,3.3086,0.6117,180,0.025081,57.82,60.94,0.2092,0.4178,0.984,3.3234,3787,324,1.0
-33.17,3.1592,36.3,3.1528,0.4558,459,0.027615,60.63,58.09,0.5461,0.4982,0.9805,3.1656,3787,681,1.0
-8.26,3.7331,34.6,3.7297,0.5997,117,0.028217,47.83,47.31,0.1695,0.6036,0.9762,3.7366,1654,210,0.0
14.5,3.9382,28.4,3.9339,0.7742,155,0.030595,60.99,62.02,0.2311,0.1347,0.9895,3.9425,2908,243,0.0
-25.54,4.0756,17.2,4.0604,0.8685,765,0.0323,63.13,61.68,0.4344,0.7346,0.9591,4.0908,2908,1018,0.0
10.33,3.1962,37.2,3.1424,0.4794,271,0.027323,88.5,88.26,0.1066,0.5821,0.9775,3.25,4064,547,1.0
-28.45,3.2894,5.3,3.2797,0.6046,756,0.029309,86.14,87.45,0.2891,0.7512,0.9909,3.299,4064,1269,1.0
-16.94,3.9058,37.0,3.8922,0.7541,44,0.030241,48.51,47.67,0.3545,0.2381,0.9741,3.9193,1709,184,0.0
-48.06,3.6604,31.8,3.6579,0.5497,8,0.029764,52.65,51.62,1.0075,0.2589,0.9904,3.6628,1139,68,0.0
-12.21,3.4385,40.7,3.4302,0.3658,56,0.031763,51.22,48.43,0.2422,0.6827,0.9709,3.4468,1139,221,0.0
-32.47,4.102,23.3,4.0918,0.9086,79,0.030093,50.45,53.23,0.598,0.1182,0.9643,4.1121,896,217,0.0
31.43,4.0674,30.5,4.063,0.8701,246,0.030863,51.08,50.19,0.5402,0.1412,0.9166,4.0717,896,436,0.0
-27.09,3.3227,36.5,3.3102,0.6168,392,0.022087,49.83,48.54,0.5741,0.5809,0.981,3.3351,3031,418,1.0
47.37,3.2738,27.0,3.268,0.5664,9,0.024892,97.95,100.37,0.4732,0.3973,0.9991,3.2795,4913,128,1.0
71.09,3.1591,45.0,3.1138,0.4223,116,0.027926,94.63,95.82,0.7353,0.5418,0.9936,3.2043,4913,262,1.0
32.71,3.6702,19.7,3.6639,0.5524,39,0.026219,68.36,69.35,0.4602,0.5074,0.9961,3.6766,2998,186,0.0
-38.8,3.6676,31.4,3.6588,0.5601,140,0.028558,68.59,67.2,0.589,0.6805,0.9897,3.6763,2998,262,0.0
-42.99,3.4057,30.8,3.3999,0.7202,159,0.026517,63.31,61.86,0.6986,0.2026,0.9878,3.4115,3843,502,1.0
-19.26,3.285,26.0,3.2811,0.5766,0,0.026531,91.43,95.01,0.204,0.3824,0.9959,3.289,5496,44,1.0
19.16,3.3969,29.0,3.3857,0.7227,297,0.021751,93.02,91.85,0.2025,0.1253,0.9829,3.4081,5496,546,1.0
21.32,3.5527,13.7,3.5362,0.4574,43,0.030399,50.7,53.38,0.4308,0.6382,0.9646,3.5692,1177,288,0.0
-7.53,3.6044,31.1,3.6042,0.5131,187,0.033475,50.22,51.22,0.1474,0.5629,0.9291,3.6045,1177,718,0.0
-26.84,3.7216,21.6,3.717,0.6109,228,0.028335,55.44,54.18,0.4418,0.4933,0.9806,3.7262,2401,215,0.0
31.03,3.673,27.5,3.6341,0.5591,602,0.031736,56.81,56.64,0.5314,0.1851,0.9508,3.7119,2401,475,0.0
14.51,3.8433,36.2,3.839,0.7023,159,0.029484,54.51,54.25,0.2661,0.4517,0.9715,3.8476,2477,375,0.0
-24.1,3.7558,14.1,3.7554,0.6356,23,0.031629,54.84,53.0,0.4134,0.48,0.9718,3.7561,1156,128,0.0
-11.26,3.5559,12.7,3.5549,0.4726,128,0.033393,51.57,53.2,0.2069,0.4875,0.9548,3.5569,1156,418,0.0
70.39,3.5695,30.3,3.5687,0.9138,227,0.023412,107.13,110.86,0.677,0.0624,0.9973,3.5702,5149,228,1.0
-18.75,3.2193,32.7,3.2096,0.4909,659,0.026183,107.03,106.36,0.1702,0.85,0.9851,3.229,5149,580,1.0
26.21,3.481,34.1,3.465,0.4028,24,0.030851,58.01,59.88,0.4009,0.7529,0.9775,3.4969,2144,129,0.0
13.51,4.0421,18.1,4.0338,0.8775,43,0.03209,53.38,50.38,0.2651,0.2372,0.9827,4.0504,1027,138,0.0
-31.95,3.7528,11.7,3.7358,0.6203,367,0.032085,49.52,50.12,0.6117,0.4341,0.9427,3.7698,1027,467,0.0
38.25,3.2202,22.9,3.2021,0.5108,164,0.02545,103.91,104.16,0.369,0.325,1.0,3.2384,4685,240,1.0
-52.78,3.4534,33.4,3.4277,0.7506,538,0.027363,104.9,101.83,0.5068,0.3442,0.9907,3.479,4685,559,1.0
70.99,3.3249,21.4,3.3125,0.6378,224,0.026309,92.25,93.91,0.7466,0.2884,0.9932,3.3374,4945,275,1.0
-44.74,3.7538,34.8,3.7401,0.6199,20,0.027667,68.63,64.8,0.6212,0.3187,0.9886,3.7675,2669,81,0.0
-93.64,3.6331,35.1,3.6288,0.5385,424,0.030123,66.04,64.51,1.3235,0.4345,0.9436,3.6375,2669,567,0.0
42.35,3.3518,22.4,3.3233,0.6498,109,0.026919,71.65,77.69,0.5841,0.6695,0.9954,3.3803,2326,292,1.0
17.19,3.4982,33.8,3.4894,0.8504,417,0.027552,72.48,72.24,0.2368,0.4917,0.9717,3.5069,2326,640,1.0
-17.66,3.826,41.7,3.8158,0.6898,113,0.030097,50.67,49.84,0.3326,0.7201,0.9717,3.8361,2661,168,0.0
14.41,3.9128,29.5,3.9063,0.746,286,0.028824,51.65,48.59,0.2784,0.4217,0.9701,3.9192,2661,339,0.0
-56.31,3.1357,22.5,3.1293,0.3752,475,0.024772,54.87,56.79,1.0594,0.5276,0.9914,3.1421,3779,433,1.0
-13.06,3.1892,15.8,3.1825,0.4724,202,0.026024,83.16,89.38,0.1533,0.7627,0.998,3.1959,5853,403,1.0
-22.88,3.0187,14.8,3.0132,0.2715,947,0.024327,85.73,86.09,0.2516,0.6205,0.9876,3.0242,5853,1512,1.0
-6.94,3.4278,28.1,3.4262,0.7722,136,0.025081,57.24,56.34,0.1261,0.4264,0.9859,3.4295,3609,762,1.0
-23.84,3.5207,7.7,3.4654,0.8403,372,0.025595,54.0,55.86,0.4295,0.4744,0.9777,3.576,3609,1866,1.0
-19.82,3.2595,30.4,3.2324,0.5292,30,0.030899,69.33,68.37,0.3045,0.8367,1.0,3.2867,3534,83,1.0
10.39,3.6667,27.3,3.6657,0.5364,78,0.030084,46.22,47.67,0.2161,0.8467,0.9631,3.6677,979,167,0.0
-10.38,3.9095,34.4,3.901,0.7637,498,0.038828,42.27,41.38,0.2167,0.5988,0.8796,3.918,979,689,0.0
20.39,3.8544,34.1,3.8439,0.6907,79,0.028458,40.96,40.85,0.4793,0.8102,0.9718,3.8648,1934,315,0.0
50.18,3.5171,33.1,3.5133,0.4342,241,0.031806,39.67,40.94,1.1499,0.6951,0.9487,3.5209,1934,673,0.0
28.71,3.6848,25.3,3.6793,0.5634,429,0.035043,46.13,46.83,0.6415,0.6735,0.9282,3.6902,1142,609,0.0
14.98,4.1005,37.2,4.0982,0.9345,12,0.028139,51.26,53.03,0.3054,0.0854,0.9676,4.1027,994,157,0.0
-8.57,3.7755,45.0,3.7129,0.67,135,0.033861,48.68,47.65,0.157,0.21,0.9161,3.8381,994,382,0.0
-15.3,3.6568,27.8,3.6405,0.5345,28,0.030262,67.4,67.67,0.2357,0.63,0.9804,3.6732,2075,190,0.0
21.2,3.6385,39.3,3.6278,0.516,97,0.031054,66.92,66.26,0.3427,0.6323,0.9757,3.6493,2075,276,0.0
11.52,3.8861,15.5,3.8619,0.7482,102,0.029391,47.42,46.6,0.2031,0.609,0.9449,3.9102,851,290,0.0
33.1,3.701,30.0,3.6899,0.56,4,0.029321,43.3,43.63,0.7625,0.4191,0.9743,3.7121,1197,102,0.0
-20.28,3.6838,31.7,3.6467,0.5408,252,0.032901,42.1,44.09,0.4881,0.6664,0.942,3.7209,1197,355,0.0
-16.67,3.8645,39.6,3.8453,0.7387,85,0.02886,47.95,47.38,0.3649,0.4487,0.9807,3.8837,1677,137,0.0
-48.79,3.7826,19.7,3.7706,0.6537,351,0.033029,46.68,45.33,0.9508,0.3887,0.9705,3.7946,1677,317,0.0
7.09,3.3742,20.5,3.2822,0.6833,161,0.025962,64.72,66.47,0.1133,0.6968,0.9931,3.4663,3378,215,1.0
50.4,3.0916,19.0,3.0846,0.3587,418,0.026346,67.94,66.53,0.7574,0.6422,0.9882,3.0987,3378,389,1.0
12.97,3.7517,31.7,3.72,0.6261,414,0.03425,43.66,44.4,0.2659,0.4597,0.9267,3.7834,1097,405,0.0
27.02,3.346,45.0,3.3441,0.2768,124,0.030999,58.61,57.84,0.4719,0.5223,0.9855,3.3478,2681,163,0.0
-62.93,3.4565,35.7,3.4545,0.3829,647,0.033029,56.48,58.11,1.0365,0.7762,0.9406,3.4584,2681,580,0.0
-18.69,3.5608,25.1,3.5512,0.4726,108,0.030923,46.47,45.91,0.399,0.5388,0.9592,3.5703,1005,200,0.0
14.74,4.0298,28.8,4.0226,0.868,308,0.03405,43.45,42.95,0.3126,0.6942,0.9302,4.0369,1005,445,0.0
-10.15,3.9416,33.6,3.9372,0.7973,162,0.034328,45.1,44.35,0.2109,0.475,0.931,3.946,1079,625,0.0
-6.94,3.6225,17.8,3.6218,0.5226,12,0.03169,47.88,46.36,0.1401,0.4465,0.9792,3.6232,1090,94,0.0
-17.26,3.9886,35.8,3.9873,0.8013,94,0.027724,46.75,46.01,0.37,0.0936,0.9664,3.99,1090,155,0.0
13.91,3.5551,27.5,3.5388,0.4759,301,0.029804,49.93,51.48,0.2599,0.4453,0.9491,3.5715,1397,392,0.0
-33.51,3.5266,30.5,3.5046,0.4527,960,0.035406,45.84,44.87,0.6402,0.8368,0.8798,3.5486,1397,881,0.0
6.18,3.4669,41.7,3.463,0.3579,444,0.034568,39.57,38.22,0.1595,0.2917,0.918,3.4707,1734,414,0.0
15.85,4.0375,23.6,4.0372,0.8598,51,0.031229,53.57,55.55,0.2764,0.05,0.9867,4.0378,2112,198,0.0
-40.33,3.8082,9.6,3.8009,0.6745,807,0.031956,54.75,54.91,0.6328,0.6578,0.9614,3.8155,2112,783,0.0
12.38,3.9484,19.7,3.9468,0.8106,11,0.029574,48.86,49.01,0.2458,0.1191,0.9703,3.9501,890,111,0.0
11.39,3.5126,39.1,3.5009,0.4144,40,0.03097,47.93,47.77,0.2354,0.6882,0.9502,3.5244,890,215,0.0
25.35,3.7329,34.7,3.7267,0.5895,77,0.029259,67.48,67.16,0.3809,0.424,0.9818,3.739,2458,275,0.0
-51.08,3.526,22.6,3.5107,0.4704,192,0.029512,65.48,65.7,0.7561,0.4064,0.9745,3.5412,2458,480,0.0
-22.81,3.9361,38.9,3.9162,0.7723,382,0.039384,43.56,43.93,0.4331,0.5706,0.8305,3.9561,870,954,0.0
127.22,3.3242,39.5,3.3089,0.2824,102,0.02936,60.84,58.56,1.9849,0.7534,0.9727,3.3394,2877,246,0.0
115.59,3.5474,36.2,3.5466,0.4615,456,0.031347,56.35,59.57,1.8467,0.3522,0.9449,3.5481,2877,625,0.0
-22.93,3.4864,24.7,3.4862,0.41,85,0.031778,50.2,50.29,0.459,0.771,0.9816,3.4865,1860,203,0.0
14.62,3.9763,22.3,3.9096,0.7926,229,0.02876,51.02,50.12,0.2834,0.2059,0.974,4.043,1860,332,0.0
-25.67,3.6281,23.7,3.6275,0.525,292,0.027709,55.49,54.08,0.4442,0.5272,0.9848,3.6286,2121,401,0.0
14.03,3.6696,39.3,3.6261,0.5874,99,0.028917,65.09,65.36,0.2107,0.79,0.9844,3.7132,2564,139,0.0
-15.8,3.6905,35.6,3.6442,0.5526,587,0.028035,63.23,60.49,0.2314,0.4201,0.9594,3.7367,2564,590,0.0
25.53,3.9735,25.6,3.9557,0.8041,54,0.03029,58.99,57.46,0.458,0.2424,0.9825,3.9912,1706,112,0.0
-70.03,3.5066,29.3,3.4938,0.4215,160,0.031277,56.02,56.69,1.1174,0.6666,0.9647,3.5193,1706,207,0.0
-6.15,3.8047,29.4,3.7888,0.6652,306,0.030098,55.87,53.25,0.1106,0.4118,0.9429,3.8205,1294,434,0.0
24.25,3.7536,29.0,3.7512,0.6391,38,0.027754,40.72,39.68,0.5456,0.7293,0.9769,3.756,1369,88,0.0
43.08,4.0228,32.9,4.0142,0.8708,359,0.034704,39.44,39.99,0.9745,0.7619,0.9377,4.0314,1369,309,0.0
-35.49,3.2746,28.5,3.2241,0.5504,72,0.022273,118.59,116.76,0.2979,0.8405,0.9909,3.3251,5246,197,1.0
-60.25,3.3873,38.0,3.3853,0.7159,241,0.025313,117.42,116.16,0.5311,0.231,0.9966,3.3894,5246,360,1.0
28.28,3.4025,18.1,3.3944,0.7049,111,0.021914,101.59,105.89,0.2671,0.3634,0.9921,3.4106,4010,253,1.0
50.27,3.1541,20.0,3.1483,0.4171,26,0.024839,87.55,88.64,0.5904,0.5522,0.9894,3.16,5301,124,1.0
-49.49,3.4983,24.6,3.4914,0.8182,814,0.025555,87.83,85.84,0.5685,0.4979,0.9859,3.5051,5301,1332,1.0
37.74,3.3567,40.6,3.3341,0.6605,116,0.025335,86.92,87.52,0.4347,0.4948,0.9931,3.3794,5008,272,1.0
-68.74,3.2569,35.4,3.2563,0.5299,461,0.023607,86.41,86.01,0.7642,0.551,0.9842,3.2575,5008,631,1.0
-24.83,4.0895,33.5,4.0868,0.8993,20,0.032905,46.42,47.31,0.5066,0.086,0.9613,4.0923,1160,202,0.0
6.32,3.4231,36.1,3.418,0.3721,51,0.030165,48.35,46.91,0.1269,0.7674,0.9609,3.4283,1160,238,0.0
-8.87,3.6455,27.6,3.63,0.5406,608,0.035981,45.97,45.78,0.1704,0.4202,0.9128,3.6611,1358,1063,0.0
15.78,3.6941,36.6,3.6928,0.5588,21,0.025303,56.25,54.49,0.2718,0.5006,0.988,3.6954,1645,61,0.0
-6.4,3.6101,31.6,3.5988,0.5201,106,0.026375,55.83,57.24,0.1043,0.4036,0.9779,3.6213,1645,120,0.0
89.66,3.136,45.0,3.1173,0.3859,176,0.025526,104.86,100.78,0.8322,0.4136,1.0,3.1548,5881,305,1.0
-16.81,3.1972,25.4,3.1971,0.4878,492,0.02174,104.89,100.19,0.1565,0.2408,0.9966,3.1973,5881,738,1.0
-29.41,3.3276,15.6,3.3147,0.6088,769,0.025094,51.66,52.73,0.4866,0.4669,0.9769,3.3406,2487,974,1.0
-24.72,3.8424,38.6,3.8358,0.7233,50,0.029162,68.24,65.46,0.3621,0.2897,0.9834,3.8489,2369,85,0.0
-35.82,3.9182,34.6,3.912,0.7605,351,0.030606,62.12,65.08,0.5378,0.3226,0.9623,3.9245,2369,410,0.0
-13.78,3.7635,25.1,3.7612,0.6277,98,0.031243,65.86,69.17,0.1937,0.8567,0.9774,3.7657,2558,242,0.0
-12.34,4.0412,43.8,4.0031,0.8684,307,0.033205,65.97,66.93,0.1876,0.6383,0.9544,4.0793,2558,411,0.0
-107.26,3.5208,44.7,3.4959,0.4356,212,0.035197,53.93,53.24,1.7918,0.7681,0.908,3.5457,1207,259,0.0
-20.49,3.0647,28.1,3.0593,0.3321,41,0.023246,103.09,96.35,0.2055,0.5867,0.9873,3.0702,5216,106,1.0
-65.21,3.5681,31.7,3.5573,0.9105,531,0.024348,98.5,98.5,0.6392,0.1208,0.9883,3.5789,5216,471,1.0
-6.63,3.8626,39.1,3.8564,0.7095,160,0.039552,39.18,40.91,0.1546,0.8612,0.8814,3.8687,874,823,0.0
-17.54,3.6975,15.2,3.6965,0.5925,573,0.043457,38.65,38.23,0.4064,0.4993,0.844,3.6986,874,2790,0.0
-14.33,3.4858,34.7,3.4831,0.4082,278,0.030619,47.69,47.92,0.2778,0.8462,0.9366,3.4885,1116,360,0.0
-70.2,3.171,23.2,3.1545,0.4287,0,0.024189,89.95,91.6,0.7764,0.4229,1.0,3.1875,4223,48,1.0
-38.07,3.1164,26.8,3.103,0.3854,391,0.030985,88.28,86.99,0.4172,0.6482,0.9893,3.1298,4223,1087,1.0
-17.56,3.492,18.8,3.4682,0.4032,124,0.030345,45.68,46.17,0.3615,0.7128,0.9527,3.5158,1056,352,0.0
36.11,3.6965,24.8,3.6892,0.5719,532,0.038246,42.67,44.53,0.6795,0.5073,0.8984,3.7039,1056,1289,0.0
43.67,3.8549,30.3,3.8545,0.7065,109,0.032237,55.19,53.18,0.7973,0.6137,0.9767,3.8552,1903,263,0.0
25.25,4.0663,36.2,4.056,0.8784,288,0.032182,53.16,53.33,0.4503,0.0648,0.9591,4.0767,1903,607,0.0
23.55,3.3286,26.6,3.3285,0.5981,143,0.027271,63.12,63.82,0.3679,0.4095,0.9934,3.3287,3156,423,1.0
31.15,4.0524,35.5,4.0486,0.8828,43,0.027786,53.24,52.66,0.5956,0.05,0.9561,4.0562,969,204,0.0
-8.55,3.5229,45.0,3.5067,0.4353,243,0.031592,48.32,50.66,0.1465,0.4788,0.899,3.5391,969,377,0.0
-17.85,3.6436,18.8,3.6432,0.5363,465,0.032237,39.51,41.1,0.4264,0.8024,0.9381,3.644,1876,2379,0.0
-32.7,3.8905,39.2,3.8802,0.7557,1350,0.047161,32.33,32.34,0.7374,0.2716,0.7418,3.9008,1876,6607,0.0
27.33,3.745,37.8,3.7344,0.6195,453,0.032954,49.74,48.13,0.5767,0.3697,0.9504,3.7555,2884,555,0.0
11.77,3.7668,28.7,3.7474,0.6417,32,0.02826,45.72,44.53,0.2632,0.7066,0.9725,3.7862,1161,185,0.0
-9.95,3.3661,15.5,3.3567,0.3094,276,0.03068,45.24,46.36,0.1974,0.7761,0.9639,3.3755,1161,379,0.0
-19.09,3.4707,32.9,3.4613,0.7696,61,0.02595,86.01,85.32,0.2289,0.1726,0.9992,3.4801,5544,197,1.0
-40.25,3.2524,38.2,3.2062,0.525,200,0.024112,87.36,89.12,0.4573,0.438,0.9864,3.2986,5544,320,1.0
37.29,3.8648,36.3,3.8546,0.7325,371,0.032333,49.99,47.33,0.7186,0.0837,0.9591,3.875,2440,463,0.0
-15.76,3.4246,10.6,3.4218,0.7322,21,0.026607,56.52,56.79,0.2781,0.4211,0.9854,3.4273,2748,173,1.0
11.04,3.5293,20.3,3.5224,0.8742,434,0.023244,54.0,54.93,0.1926,0.072,0.9814,3.5363,2748,566,1.0
29.42,3.6623,33.9,3.6605,0.5377,152,0.033583,48.15,47.52,0.5521,0.3376,0.9231,3.6641,907,578,0.0
5.96,3.6814,26.7,3.6716,0.5703,580,0.040671,44.62,45.97,0.1056,0.4046,0.843,3.6912,907,1933,0.0
-24.3,3.6801,21.0,3.6777,0.5533,433,0.030015,42.34,43.55,0.5075,0.5547,0.9392,3.6826,1390,686,0.0
-16.51,3.9499,5.6,3.944,0.7953,1089,0.034048,40.95,41.29,0.3637,0.2415,0.9218,3.9558,1390,1537,0.0
44.87,3.8835,30.0,3.8693,0.7126,67,0.028151,45.9,45.07,0.9164,0.5102,0.9594,3.8976,825,154,0.0
12.67,3.9513,37.4,3.9454,0.7806,36,0.029401,43.12,44.21,0.2924,0.1921,0.9725,3.9572,1110,140,0.0
25.63,3.7739,45.0,3.7716,0.6511,169,0.032797,39.82,41.49,0.5552,0.4177,0.9202,3.7761,1110,458,0.0
98.75,3.8154,44.3,3.8061,0.709,250,0.037998,49.15,49.91,1.7,0.0823,0.9166,3.8248,1931,836,0.0
29.41,4.0019,31.1,3.9997,0.8484,684,0.034027,49.31,47.73,0.537,0.4112,0.9138,4.004,1931,2123,0.0
24.56,3.2113,22.6,3.2083,0.4951,130,0.027596,67.05,68.32,0.3471,0.3267,0.9925,3.2143,2281,276,1.0
14.31,3.6513,25.7,3.6428,0.5536,37,0.030619,47.09,47.17,0.2637,0.6741,0.9732,3.6598,1129,100,0.0
-10.06,3.6844,29.8,3.6727,0.5608,240,0.033218,46.54,46.14,0.2004,0.2356,0.9456,3.6961,1129,264,0.0
-6.67,3.6101,41.5,3.606,0.4975,87,0.029964,47.78,47.08,0.1326,0.7704,0.9683,3.6142,1739,240,0.0
-95.37,4.0318,45.0,4.026,0.8607,264,0.034859,43.9,46.12,1.9829,0.6261,0.9069,4.0377,1739,417,0.0
39.93,3.6706,22.5,3.6628,0.5609,138,0.027007,43.22,42.56,0.8478,0.2525,0.969,3.6785,896,190,0.0
-75.06,3.9195,29.6,3.9195,0.7651,10,0.027485,55.78,55.54,1.3062,0.4815,0.9924,3.9195,2245,89,0.0
-20.14,4.0572,45.0,4.0564,0.8903,109,0.031165,55.97,55.58,0.3676,0.4852,0.9755,4.058,2245,171,0.0
-53.94,3.3529,41.2,3.3474,0.6584,12,0.025545,106.86,102.57,0.4842,0.5956,0.9949,3.3584,5758,73,1.0
-41.52,3.4128,43.3,3.401,0.6942,41,0.02552,106.01,103.66,0.3929,0.7631,0.9933,3.4247,5758,109,1.0
-18.57,3.8112,30.0,3.8101,0.6878,236,0.031687,50.12,47.71,0.3793,0.4532,0.9331,3.8122,951,328,0.0
-28.59,3.3071,5.0,3.2993,0.2584,5,0.028763,53.74,54.07,0.475,0.3259,0.9871,3.3149,2101,111,0.0
-25.78,3.667,26.2,3.6645,0.5526,301,0.028923,54.76,53.45,0.4956,0.6573,0.9703,3.6695,2101,468,0.0
74.16,3.4108,8.3,3.3771,0.7234,163,0.025388,111.02,111.85,0.6998,0.1469,0.9987,3.4445,5507,210,1.0
-46.35,3.3204,21.1,3.3161,0.5986,672,0.023386,111.87,109.63,0.3822,0.565,0.9928,3.3247,5507,735,1.0
18.3,3.9662,11.0,3.9293,0.816,196,0.027166,45.23,46.45,0.3953,0.48,0.9598,4.0032,1024,220,0.0
-21.15,3.5851,29.4,3.5756,0.4919,510,0.037456,42.98,43.25,0.4142,0.4234,0.9137,3.5946,1024,523,0.0
-38.28,3.2023,18.9,3.1961,0.164,118,0.031808,55.84,57.29,0.7262,0.6093,0.9738,3.2085,2497,500,0.0
31.14,3.4917,27.2,3.4917,0.8258,69,0.026315,82.28,83.72,0.3828,0.05,0.9872,3.4917,4710,379,1.0
49.38,3.3394,21.4,3.282,0.614,361,0.026159,83.63,83.78,0.6,0.4692,0.9913,3.3969,4710,1716,1.0
15.17,3.8574,32.7,3.8333,0.7065,38,0.031671,45.07,47.15,0.3236,0.3614,0.9739,3.8816,1138,133,0.0
23.82,3.6488,26.5,3.6466,0.5503,108,0.02858,46.24,44.9,0.5241,0.5146,0.9595,3.651,1138,230,0.0
-46.9,3.7787,33.6,3.771,0.6274,248,0.031777,44.31,45.29,0.9636,0.2718,0.9373,3.7863,1189,366,0.0
-83.51,3.3274,32.3,3.3129,0.6009,33,0.023229,119.35,120.92,0.6751,0.3524,0.9932,3.3418,5334,200,1.0
47.68,3.294,38.6,3.2648,0.5899,256,0.029815,117.34,116.34,0.4396,0.2722,0.9874,3.3231,5334,728,1.0
-6.43,3.2947,27.8,3.2797,0.2634,71,0.03162,50.65,51.37,0.1257,0.7881,0.9452,3.3097,970,288,0.0
-9.91,3.8545,39.3,3.8475,0.7205,226,0.038778,47.99,47.82,0.1815,0.5117,0.8904,3.8615,970,768,0.0
-35.35,3.7719,12.5,3.7249,0.6417,392,0.032463,49.03,48.05,0.6923,0.4728,0.9481,3.8189,1090,435,0.0
17.24,4.1328,33.3,4.1288,0.9451,7,0.029393,55.02,56.05,0.2941,0.8126,1.0,4.1368,2568,130,0.0
-16.96,4.0416,32.9,4.0314,0.8656,110,0.030935,55.12,56.38,0.278,0.1178,0.9733,4.0518,2568,343,0.0
9.52,4.0112,19.6,4.0109,0.8617,251,0.028763,44.6,43.82,0.2005,0.339,0.9553,4.0115,1432,450,0.0
8.89,3.6504,24.0,3.633,0.5509,927,0.036667,43.39,41.94,0.1841,0.4663,0.9175,3.6678,1432,1293,0.0
5.78,3.5681,32.1,3.5484,0.4697,184,0.031857,44.73,42.18,0.1242,0.7421,0.9489,3.5877,1178,361,0.0
32.75,4.1305,15.1,4.1148,0.9222,457,0.028768,42.2,43.36,0.6793,0.0725,0.9361,4.1461,1178,653,0.0
26.21,3.6485,24.1,3.6443,0.5269,191,0.031096,48.67,48.83,0.5088,0.5529,0.9865,3.6527,2073,384,0.0
23.4,3.2349,41.3,3.2334,0.5502,19,0.026309,112.68,113.95,0.2013,0.4805,0.9991,3.2364,4264,84,1.0
-15.98,3.376,38.8,3.3703,0.6746,86,0.024986,113.31,109.35,0.1396,0.4743,0.9888,3.3817,4264,210,1.0
-14.1,3.7381,34.3,3.736,0.5996,249,0.033201,65.29,64.98,0.2266,0.5481,0.9639,3.7402,2246,358,0.0
46.36,3.5256,25.1,3.5208,0.4317,669,0.033288,66.14,64.41,0.6639,0.4311,0.9459,3.5304,2246,892,0.0
27.31,3.2619,22.7,3.2432,0.5348,513,0.029804,66.56,67.21,0.3987,0.3095,0.9713,3.2807,2174,928,1.0
-21.88,3.8494,24.4,3.8436,0.6783,17,0.0296,49.18,46.56,0.4424,0.347,0.9782,3.8552,893,52,0.0
26.07,3.3789,18.1,3.3787,0.3289,104,0.030028,47.37,46.69,0.5496,0.5962,0.9641,3.3792,893,137,0.0
20.4,3.5874,15.8,3.5707,0.4992,31,0.031156,59.21,62.04,0.3395,0.4921,0.9889,3.6041,2654,147,0.0
-36.93,3.9004,22.9,3.8982,0.7863,93,0.029646,62.1,58.65,0.592,0.5297,0.9846,3.9027,2654,189,0.0
-32.74,3.85,25.3,3.8138,0.6957,237,0.027839,60.02,59.73,0.495,0.3878,0.983,3.8862,2549,463,0.0
-88.82,3.4509,23.5,3.4435,0.3709,22,0.0285,52.61,55.84,1.6551,0.5621,0.9739,3.4582,1569,172,0.0
25.01,3.8738,31.8,3.873,0.7139,213,0.032022,49.76,51.51,0.4913,0.7125,0.9518,3.8746,1569,787,0.0
45.67,3.1481,38.4,3.132,0.4187,232,0.028854,55.04,51.55,0.7793,0.4872,0.9816,3.1641,2935,449,1.0
7.17,3.3667,45.0,3.3491,0.6624,780,0.029331,48.71,50.18,0.131,0.8272,0.945,3.3843,2935,1113,1.0
-19.05,3.9157,31.7,3.8869,0.7627,21,0.03026,47.81,48.23,0.3734,0.634,0.9739,3.9445,1177,94,0.0
-29.64,3.5473,24.6,3.5385,0.8758,1,0.026994,91.63,90.2,0.3218,0.5022,0.9826,3.556,4463,115,1.0
-10.82,3.3327,24.4,3.329,0.6382,46,0.02487,89.72,93.14,0.1295,0.6965,0.9928,3.3364,4463,214,1.0
-75.39,3.2801,25.0,3.2624,0.2352,217,0.030194,62.79,64.16,1.1312,0.7595,0.9645,3.2979,2764,263,0.0
29.33,3.6629,22.5,3.6268,0.5328,859,0.030133,60.2,64.73,0.5016,0.3003,0.9644,3.6989,2764,707,0.0
-18.69,4.0846,30.3,4.0747,0.8816,252,0.039065,45.76,45.99,0.3477,0.6594,0.8872,4.0945,832,1060,0.0
-8.26,3.6285,43.2,3.6215,0.5348,645,0.048487,35.57,35.44,0.1606,0.6637,0.6914,3.6356,832,2523,0.0
38.11,3.4398,6.2,3.4107,0.7895,92,0.025889,73.1,73.31,0.5342,0.4381,0.9968,3.4688,2843,202,1.0
-25.48,4.0045,23.2,3.9812,0.8482,15,0.031116,45.5,45.38,0.5433,0.4641,0.9844,4.0278,1063,93,0.0
23.08,3.7254,18.1,3.7125,0.6072,76,0.032164,45.2,45.66,0.5163,0.3536,0.9751,3.7383,1063,144,0.0
-131.75,3.2605,39.1,3.257,0.5385,18,0.021681,91.74,90.36,1.4371,0.412,1.0,3.2639,5987,112,1.0
-12.71,3.0825,14.9,3.0763,0.3493,52,0.02661,88.68,91.16,0.1305,0.5437,1.0,3.0887,5987,179,1.0
-45.49,3.4167,23.8,3.4027,0.7273,266,0.025707,74.37,75.98,0.6143,0.6557,0.9814,3.4306,2105,301,1.0
19.81,3.2686,19.6,3.2681,0.5568,31,0.025223,65.81,66.32,0.3066,0.3459,1.0,3.2691,2109,74,1.0
-18.27,3.2143,34.1,3.211,0.4957,218,0.023299,63.97,63.83,0.2693,0.3992,0.9742,3.2176,2109,315,1.0
-20.23,3.6589,25.5,3.6485,0.5332,28,0.028725,44.94,44.04,0.4266,0.3874,0.9683,3.6692,827,91,0.0
-23.75,3.7709,33.6,3.7702,0.6577,89,0.030304,44.29,43.37,0.5084,0.4095,0.9574,3.7715,827,153,0.0
28.09,3.1851,24.5,3.1835,0.4545,86,0.025142,87.5,87.51,0.3533,0.3641,0.9965,3.1867,4417,247,1.0
-9.03,3.8769,24.0,3.8662,0.7271,9,0.028586,51.1,50.79,0.1672,0.2555,0.9608,3.8876,956,186,0.0
-8.18,3.5907,26.9,3.5818,0.4955,124,0.029579,53.62,51.02,0.1395,0.2334,0.9472,3.5996,956,296,0.0
-85.06,3.847,10.6,3.8448,0.7228,248,0.031687,54.37,53.05,1.633,0.7994,0.9474,3.8493,1739,1277,0.0
-46.28,3.849,13.6,3.8198,0.7154,884,0.03569,50.49,51.79,0.7383,0.6391,0.8896,3.8782,1739,4188,0.0
-31.14,3.6996,20.0,3.666,0.5795,263,0.031403,59.22,59.88,0.4966,0.6059,0.9632,3.7332,2282,1230,0.0
-13.96,3.4309,22.5,3.3988,0.7559,0,0.024175,89.39,91.0,0.1576,0.6104,0.9859,3.4629,4967,121,1.0
-14.67,3.2387,37.6,3.2249,0.5193,135,0.024343,91.26,89.98,0.1587,0.509,0.9879,3.2524,4967,214,1.0
-20.82,3.6112,17.6,3.6074,0.4969,128,0.03314,43.13,41.12,0.438,0.378,0.9302,3.615,972,722,0.0
-25.34,4.0024,27.3,3.976,0.8266,550,0.042432,36.98,38.54,0.534,0.2903,0.8358,4.0288,972,2795,0.0
-15.0,3.4852,34.0,3.4748,0.3994,246,0.037783,42.49,43.6,0.3075,0.6088,0.9062,3.4956,856,513,0.0
55.27,3.4894,29.8,3.4893,0.3925,649,0.041934,38.67,41.11,1.1485,0.6166,0.828,3.4894,856,1252,0.0
-38.5,3.2957,27.9,3.2901,0.2547,63,0.031929,56.76,56.83,0.6581,0.6742,0.989,3.3013,2596,203,0.0
30.06,3.2279,22.1,3.1728,0.4873,56,0.028686,50.24,49.35,0.5763,0.6857,0.9878,3.2831,3114,189,1.0
21.13,3.1946,13.5,3.1687,0.4577,311,0.026886,51.22,49.43,0.4407,0.6495,0.9881,3.2205,3114,543,1.0
32.41,3.4859,31.0,3.4786,0.4219,72,0.02886,68.69,68.22,0.5016,0.3686,0.985,3.4932,2253,103,0.0
-41.93,3.4977,27.3,3.4843,0.4221,210,0.033868,65.96,68.57,0.5868,0.3274,0.9795,3.5111,2253,243,0.0
12.37,3.3621,29.7,3.3551,0.2968,208,0.03226,42.67,44.04,0.2562,0.5942,0.9531,3.369,1180,248,0.0
28.61,3.8818,22.1,3.8651,0.7373,40,0.02873,55.78,55.07,0.471,0.2407,0.9845,3.8985,1384,136,0.0
-15.73,3.6121,30.6,3.6035,0.5064,341,0.027393,51.59,51.36,0.2515,0.3575,0.9416,3.6206,1384,355,0.0
4.6,3.8688,42.6,3.861,0.7147,80,0.028896,42.2,42.35,0.1109,0.4489,0.9733,3.8765,1812,344,0.0
-6.3,3.9042,45.0,3.8503,0.7508,261,0.0325,41.04,40.55,0.1506,0.3597,0.9366,3.9582,1812,785,0.0
54.28,3.9252,14.5,3.9222,0.7654,38,0.031486,44.3,46.14,1.1672,0.2957,0.9543,3.9283,819,184,0.0
22.7,3.7062,24.3,3.7023,0.5946,8,0.029265,50.08,48.32,0.4598,0.3475,0.9781,3.71,1479,134,0.0
17.65,3.9632,32.3,3.9623,0.7913,174,0.031222,47.56,47.27,0.3165,0.4908,0.9588,3.964,1479,311,0.0
-10.0,3.6176,15.2,3.6069,0.4995,95,0.030415,55.89,56.86,0.1973,0.7106,0.9733,3.6283,1812,214,0.0
-44.3,3.8522,14.9,3.8241,0.7092,363,0.03031,56.61,56.58,0.7605,0.7995,0.9608,3.8803,1812,495,0.0
207.28,3.2772,32.6,3.2746,0.5722,93,0.024059,120.37,118.56,1.8344,0.6655,0.9966,3.2798,5043,270,1.0
-60.67,3.4842,30.8,3.4839,0.7855,235,0.028986,117.85,118.46,0.5538,0.7244,0.992,3.4845,5043,436,1.0
-12.43,3.8595,17.7,3.8586,0.7131,113,0.029793,42.94,43.99,0.2999,0.3493,0.9584,3.8605,935,247,0.0
23.07,3.7627,30.0,3.7472,0.6404,116,0.029074,39.98,39.86,0.5472,0.5974,0.9667,3.7782,1558,248,0.0
-11.78,3.7102,33.7,3.7078,0.5953,543,0.032664,39.59,37.95,0.2704,0.4259,0.9314,3.7127,1558,565,0.0
78.64,3.2463,13.6,3.2235,0.5419,663,0.027079,109.98,109.62,0.6523,0.3844,0.9878,3.269,4023,625,1.0
-28.99,3.4144,33.1,3.4038,0.7014,1813,0.028257,106.44,105.64,0.2504,0.6947,0.9646,3.4251,4023,1476,1.0
-30.33,3.2185,25.1,3.2051,0.5219,199,0.027599,106.95,109.15,0.2621,0.5416,0.9872,3.2319,4547,411,1.0
-85.17,3.5151,23.4,3.5144,0.8524,143,0.021845,115.17,115.16,0.7435,0.6987,0.9985,3.5159,4528,211,1.0
-32.17,3.4724,21.8,3.4687,0.7861,916,0.026729,114.11,112.53,0.2672,0.7573,0.9856,3.4761,4528,851,1.0
-25.51,3.3663,32.8,3.3599,0.7018,48,0.024322,50.5,49.67,0.4832,0.3788,0.9928,3.3726,3972,84,1.0
63.12,3.2777,23.6,3.2741,0.5723,147,0.028122,50.84,50.68,1.2043,0.4655,0.9911,3.2813,3972,181,1.0
5.92,3.9559,22.1,3.9376,0.7774,192,0.029253,55.59,53.37,0.1181,0.5546,0.9634,3.9742,1723,565,0.0
-10.4,3.2027,26.6,3.2016,0.4535,91,0.025242,75.41,73.37,0.1361,0.672,0.9968,3.2039,3589,164,1.0
-82.54,3.3194,23.4,3.3154,0.6163,989,0.024659,73.55,71.75,1.1136,0.366,0.9691,3.3233,3589,1301,1.0
-30.93,3.5906,27.6,3.589,0.5123,16,0.030609,47.82,47.73,0.612,0.409,0.9675,3.5922,1086,109,0.0
13.99,3.6272,22.2,3.5969,0.5187,58,0.030015,49.36,47.97,0.29,0.6035,0.9712,3.6575,1086,141,0.0
78.53,3.7538,31.3,3.7531,0.6222,658,0.033924,41.59,41.7,1.8426,0.5483,0.9165,3.7546,1960,644,0.0
-53.6,3.3656,18.6,3.363,0.6183,5,0.026145,93.7,95.45,0.5547,0.3429,0.9926,3.3682,5124,53,1.0
20.27,3.4503,11.0,3.4483,0.7735,336,0.023365,93.6,93.78,0.2167,0.4289,0.9794,3.4523,5124,447,1.0
13.98,3.2027,42.0,3.1893,0.4472,77,0.025208,71.45,67.43,0.2024,0.5273,0.986,3.216,3780,418,1.0
-15.65,3.2494,32.7,3.2378,0.5445,319,0.028064,70.96,72.77,0.1998,0.7933,0.9888,3.261,3780,1196,1.0
-10.81,3.7271,18.8,3.7031,0.6002,250,0.033074,44.98,44.45,0.2338,0.5581,0.9499,3.751,1027,430,0.0
16.86,3.5693,42.9,3.5624,0.4783,649,0.038665,37.88,38.31,0.3453,0.4384,0.7907,3.5761,1027,1008,0.0
-40.22,3.8147,27.3,3.7918,0.6802,240,0.03403,51.72,51.4,0.7291,0.3797,0.9412,3.8376,1084,405,0.0
39.0,3.7337,34.2,3.7261,0.5966,9,0.031918,45.38,48.34,0.7841,0.3676,0.9749,3.7413,845,52,0.0
-12.54,3.7281,30.3,3.6699,0.5948,49,0.027075,47.21,47.93,0.2698,0.4045,0.963,3.7863,845,113,0.0
-26.8,3.3599,27.3,3.3381,0.6923,144,0.025793,54.75,55.79,0.4675,0.6121,0.9885,3.3817,2635,281,1.0
-10.64,3.1161,22.0,3.1014,0.3235,411,0.025593,57.13,56.08,0.1964,0.7035,0.9834,3.1308,2635,524,1.0
74.08,3.7455,17.1,3.7363,0.622,354,0.028265,50.09,49.73,1.5081,0.6441,0.9489,3.7546,1962,1086,0.0
7.34,3.7997,26.6,3.7964,0.6737,32,0.028249,41.86,40.25,0.1834,0.2332,0.9894,3.8031,1972,66,0.0
17.7,3.9024,31.2,3.8829,0.7588,242,0.032723,39.81,40.12,0.4324,0.4471,0.9705,3.9218,1972,305,0.0
-37.5,3.3866,34.5,3.3752,0.6868,178,0.023848,92.59,92.79,0.4209,0.753,0.996,3.3981,5653,381,1.0
-11.72,3.4121,24.4,3.4104,0.7309,569,0.026938,89.25,92.99,0.123,0.5183,0.9893,3.4138,5653,829,1.0
-169.41,3.494,27.5,3.4889,0.8318,85,0.027752,102.47,104.83,1.5947,0.7588,0.9964,3.4992,5262,331,1.0
-34.26,3.7648,29.6,3.7579,0.6333,19,0.033524,64.02,64.62,0.5001,0.6094,0.9865,3.7717,2060,190,0.0
125.16,3.7842,38.5,3.7789,0.6644,299,0.03452,60.4,62.59,1.83,0.3738,0.9317,3.7894,2060,522,0.0
60.18,3.1099,11.1,3.1032,0.3573,103,0.024712,110.27,112.94,0.5501,0.6962,1.0,3.1167,5342,370,1.0
-32.35,3.3253,6.3,3.3182,0.6078,379,0.028017,113.28,108.32,0.2718,0.3107,0.9859,3.3325,5342,1031,1.0
-94.27,3.3794,31.6,3.3613,0.3222,115,0.031112,51.33,50.85,1.7134,0.4728,0.9495,3.3974,1009,213,0.0
79.53,4.024,16.0,4.0199,0.8674,285,0.030606,49.84,53.1,1.5441,0.05,0.9469,4.0281,1009,406,0.0
-5.57,3.9156,27.9,3.8917,0.7586,290,0.031121,54.96,53.04,0.1031,0.451,0.964,3.9394,2723,957,0.0
14.05,3.8617,19.8,3.8553,0.7015,81,0.026733,58.81,60.48,0.2344,0.7453,0.9742,3.868,1768,133,0.0
31.52,3.8195,27.0,3.8074,0.683,362,0.032917,57.23,57.89,0.5527,0.3061,0.9595,3.8316,1768,391,0.0
32.49,4.0848,26.5,4.0802,0.8771,99,0.025632,53.21,54.3,0.5873,0.7209,0.9713,4.0893,2815,586,0.0
-42.43,3.4064,12.2,3.3847,0.3407,266,0.030225,55.45,55.58,0.7389,0.6214,0.9691,3.4281,2815,1303,0.0
-41.82,3.1383,31.6,3.1122,0.4101,262,0.027246,92.83,96.32,0.4415,0.3814,0.9961,3.1644,4830,456,1.0
-61.66,3.4011,27.6,3.3992,0.7212,59,0.024499,119.68,118.68,0.5231,0.4144,0.9972,3.4029,5373,109,1.0
-20.45,3.0305,13.2,3.027,0.3106,352,0.024321,119.57,122.84,0.1586,0.567,0.982,3.0341,5373,432,1.0
10.67,3.2452,22.6,3.2339,0.5255,68,0.023939,71.25,71.28,0.1429,0.4426,0.9934,3.2566,3922,184,1.0
33.15,3.3824,37.5,3.3678,0.6789,202,0.024609,72.2,72.57,0.4421,0.3322,0.9943,3.3971,3922,430,1.0
-5.53,3.41,33.4,3.3972,0.3439,24,0.027366,54.11,53.28,0.1001,0.3533,0.9893,3.4228,2893,111,0.0
-16.56,3.8517,45.0,3.8438,0.7068,5,0.027766,53.36,55.08,0.2718,0.7422,0.998,3.8596,2804,84,0.0
34.67,3.9782,28.6,3.9763,0.8121,51,0.02797,53.37,53.97,0.5986,0.1596,0.9892,3.9801,2804,137,0.0
7.39,3.4923,22.5,3.4889,0.8183,45,0.026907,73.11,72.75,0.1002,0.4196,0.9924,3.4957,3056,104,1.0
-28.89,3.5104,18.2,3.508,0.8066,152,0.025923,74.49,73.11,0.3747,0.5289,0.9866,3.5129,3056,183,1.0
-14.36,2.98,41.9,2.9482,0.2079,136,0.024665,51.65,53.5,0.3089,0.5503,0.9927,3.0118,2822,140,1.0
102.98,3.431,15.9,3.4154,0.7456,24,0.026727,93.03,94.28,1.1651,0.7756,1.0,3.4465,5160,55,1.0
-25.82,3.5436,21.1,3.5423,0.8852,753,0.023954,94.45,94.67,0.2688,0.204,0.9867,3.545,5160,614,1.0
-6.28,3.6332,21.1,3.629,0.5314,163,0.035963,47.64,49.66,0.1242,0.3756,0.9675,3.6375,1023,157,0.0
-18.59,3.529,19.6,3.5127,0.435,646,0.030353,46.53,47.13,0.3386,0.3188,0.9208,3.5453,1023,512,0.0
-21.72,3.7718,34.9,3.7578,0.6444,50,0.028863,40.45,42.96,0.5163,0.3587,0.9682,3.7859,1359,181,0.0
-17.96,3.703,29.3,3.6922,0.5875,129,0.030096,40.19,40.49,0.4493,0.4269,0.9686,3.7137,1359,296,0.0
-30.99,3.495,32.1,3.4938,0.4154,486,0.032447,53.71,55.03,0.5308,0.6301,0.9765,3.4961,2850,520,0.0
99.22,3.4513,27.5,3.4461,0.3792,79,0.030228,49.95,49.82,1.9383,0.7481,0.9515,3.4566,835,210,0.0
-11.25,4.1227,22.7,4.1043,0.932,393,0.028892,48.77,47.15,0.217,0.5334,0.914,4.1411,835,498,0.0
27.1,3.8311,25.2,3.7941,0.6932,67,0.02794,59.25,57.68,0.4755,0.3691,0.9825,3.8681,1209,108,0.0
33.72,3.7545,37.6,3.727,0.6356,189,0.029118,56.57,56.8,0.6001,0.7805,0.9393,3.782,1209,226,0.0
-23.58,3.8778,33.5,3.8462,0.7402,162,0.029593,51.57,51.42,0.4573,0.4011,0.9747,3.9093,2565,585,0.0
-20.37,3.5377,24.4,3.5343,0.4454,51,0.029329,48.7,46.4,0.4034,0.6356,0.9646,3.5411,974,221,0.0
30.53,4.014,20.6,4.0097,0.8444,353,0.032156,43.64,46.0,0.6587,0.05,0.9262,4.0183,974,646,0.0
-9.26,3.5614,30.5,3.5542,0.4749,187,0.033404,47.58,45.12,0.186,0.6949,0.9471,3.5687,863,166,0.0
21.79,3.813,45.0,3.8056,0.6578,581,0.044585,38.18,39.6,0.4606,0.4091,0.7867,3.8204,863,431,0.0
16.17,4.064,27.3,4.0604,0.8882,109,0.031075,52.37,50.65,0.2903,0.5178,0.9648,4.0675,1297,318,0.0
-9.73,3.6325,26.8,3.6147,0.528,3,0.027626,45.01,45.91,0.2181,0.5713,0.9923,3.6503,1734,115,0.0
-23.13,3.6914,17.1,3.634,0.5883,40,0.030118,46.62,44.16,0.5177,0.422,0.9862,3.7489,1734,187,0.0
-19.81,4.0486,12.2,4.0414,0.8627,246,0.032906,51.93,50.67,0.3332,0.1624,0.9341,4.0559,1338,1307,0.0
-27.67,3.3473,28.5,3.3427,0.3001,877,0.041604,44.0,44.7,0.5032,0.6748,0.8369,3.3518,1338,4351,0.0
-23.61,3.5038,24.9,3.5028,0.4189,220,0.029309,58.66,58.61,0.4016,0.4975,0.9595,3.5049,1736,478,0.0
-10.43,3.7144,24.5,3.6988,0.6001,0,0.032661,48.07,49.85,0.188,0.5292,0.9761,3.73,1195,58,0.0
43.2,3.8377,24.2,3.8126,0.7311,267,0.032272,45.8,45.77,0.7922,0.3211,0.9115,3.8629,1195,1389,0.0
23.41,3.2304,38.3,3.2276,0.5188,34,0.0273,74.29,74.23,0.308,0.6759,0.9923,3.2332,2210,174,1.0
-20.88,3.2944,21.1,3.2942,0.5755,148,0.027904,75.3,72.09,0.2724,0.404,0.9798,3.2946,2210,415,1.0
-10.56,3.6444,36.8,3.6343,0.5449,137,0.031027,51.24,49.29,0.2225,0.5366,0.9576,3.6545,1388,311,0.0
11.63,3.9573,34.3,3.957,0.8094,361,0.035025,47.19,46.9,0.2385,0.2256,0.927,3.9576,1388,637,0.0
12.75,3.7446,42.8,3.736,0.6463,82,0.030855,67.8,68.0,0.1578,0.4199,0.9712,3.7532,2312,198,0.0
-89.65,3.4209,28.6,3.3971,0.3507,214,0.033092,52.89,51.64,1.6187,0.8841,0.9597,3.4448,2063,274,0.0
-5.64,3.4832,24.9,3.4785,0.3952,1188,0.033515,48.73,50.89,0.1096,0.5339,0.9432,3.4879,2063,1125,0.0
-11.03,3.5104,27.3,3.4996,0.4287,101,0.029313,49.61,48.88,0.2,0.7192,0.9634,3.5212,1079,217,0.0
21.63,4.0321,27.9,4.0231,0.8452,293,0.03378,48.92,50.04,0.3949,0.1806,0.9377,4.041,1079,434,0.0
-19.5,3.9233,38.0,3.9097,0.7672,100,0.036124,49.15,49.8,0.3882,0.7434,0.9414,3.9369,1050,315,0.0
-28.16,3.1564,37.4,3.1482,0.4355,29,0.026317,57.76,54.72,0.5004,0.5548,0.9982,3.1647,3031,79,1.0
31.43,3.2122,45.0,3.2028,0.4892,249,0.025594,54.64,53.91,0.5765,0.5274,0.9809,3.2215,3031,386,1.0
40.27,4.0787,8.6,4.0739,0.9059,26,0.029898,53.01,53.33,0.7765,0.05,0.9792,4.0836,932,114,0.0
42.8,3.8079,21.1,3.8073,0.6769,85,0.031789,51.11,49.26,0.7969,0.3698,0.9642,3.8085,932,230,0.0
-98.03,4.1201,30.8,4.0969,0.9231,99,0.035019,47.95,47.48,1.883,0.5572,0.9509,4.1433,877,133,0.0
-18.79,3.3606,39.5,3.3532,0.6681,4,0.023066,54.18,54.41,0.3542,0.2308,0.9929,3.3681,3685,63,1.0
-11.7,3.2947,24.0,3.2901,0.5813,90,0.022748,52.65,53.95,0.225,0.412,0.9943,3.2992,3685,232,1.0
-125.57,4.0426,30.9,4.0384,0.8541,261,0.033191,64.04,64.54,1.7648,0.7878,0.9595,4.0468,2421,565,0.0
-46.02,3.6722,30.5,3.6613,0.5812,996,0.032115,60.68,62.98,0.6704,0.6108,0.9229,3.6831,2421,1866,0.0
-33.06,3.6801,31.8,3.6781,0.5597,448,0.032282,42.59,42.7,0.7026,0.6222,0.9324,3.682,1504,554,0.0
-12.67,3.9012,34.0,3.8985,0.7492,1127,0.039045,39.99,39.84,0.2666,0.5773,0.8571,3.9039,1504,1271,0.0
-13.38,3.9358,34.9,3.9261,0.7797,270,0.03409,47.03,49.21,0.2504,0.5796,0.9508,3.9455,1546,665,0.0
20.02,3.717,25.7,3.7128,0.6026,9,0.026389,52.96,55.01,0.3617,0.3734,0.9902,3.7212,1755,124,0.0
-5.53,3.4185,32.2,3.4167,0.3592,44,0.027903,54.27,53.37,0.1011,0.3694,0.9825,3.4203,1755,162,0.0
-47.72,3.4104,31.5,3.3879,0.6947,370,0.027297,95.29,92.45,0.4888,0.7344,0.9797,3.4329,4323,1312,1.0
24.45,3.5168,31.7,3.4901,0.8149,1013,0.026581,93.22,91.32,0.2639,0.753,0.9653,3.5435,4323,3335,1.0
8.98,3.9333,33.9,3.9208,0.8003,75,0.032975,46.54,47.94,0.189,0.1452,0.9577,3.9458,1099,207,0.0
-24.75,3.7867,18.8,3.777,0.6655,103,0.027576,44.4,45.71,0.4849,0.2382,0.9669,3.7964,1180,232,0.0
-12.36,3.6275,7.0,3.6077,0.5212,660,0.032599,42.66,45.59,0.283,0.3864,0.9292,3.6473,1180,755,0.0
-9.52,3.9367,38.9,3.9367,0.7932,304,0.036269,41.51,41.49,0.2088,0.2378,0.904,3.9368,1363,1011,0.0
-5.76,3.7164,12.0,3.6969,0.5996,923,0.033582,39.96,40.51,0.1255,0.7095,0.9007,3.7358,1363,2710,0.0
-79.03,3.1001,15.5,3.0748,0.3568,234,0.02614,116.85,116.85,0.6425,0.4806,0.9966,3.1254,5101,881,1.0
-31.28,3.6284,25.4,3.6038,0.4993,42,0.031808,44.7,43.12,0.6985,0.3591,0.9787,3.6531,1887,196,0.0
89.19,3.4571,26.4,3.4378,0.397,458,0.032312,42.65,43.3,1.9643,0.315,0.9408,3.4765,1887,794,0.0
60.25,3.4017,15.8,3.3899,0.3317,122,0.030675,60.17,59.37,1.0143,0.6774,0.9765,3.4135,1688,225,0.0
-25.5,3.9788,33.1,3.9779,0.8294,424,0.029855,54.68,56.21,0.4364,0.1601,0.9454,3.9797,1688,636,0.0
-16.15,3.7745,28.4,3.7718,0.6596,343,0.031405,43.8,44.56,0.3293,0.3446,0.9221,3.7773,1023,561,0.0
-24.9,3.4485,12.8,3.4409,0.7598,4,0.027776,94.94,93.63,0.2722,0.3989,1.0,3.456,4858,133,1.0
-121.16,3.3143,14.2,3.312,0.6031,244,0.024057,92.9,98.75,1.3621,0.5459,1.0,3.3166,4858,306,1.0
-19.99,3.7901,23.9,3.7528,0.6657,57,0.033142,44.22,43.0,0.4314,0.2661,0.9524,3.8273,837,193,0.0
-6.11,3.3684,29.8,3.344,0.3013,234,0.034187,42.34,42.32,0.1275,0.6674,0.9237,3.3929,837,410,0.0
-32.0,3.307,15.0,3.2838,0.6044,53,0.024058,53.43,53.86,0.6137,0.5239,1.0,3.3303,2902,103,1.0
-24.56,3.3382,29.6,3.336,0.6424,138,0.023937,54.09,53.43,0.4882,0.5379,0.984,3.3404,2902,200,1.0
-7.98,3.6281,11.9,3.6278,0.5368,334,0.031489,67.51,67.26,0.1168,0.6623,0.9832,3.6284,2960,452,0.0
-56.06,3.4959,22.4,3.4805,0.4114,82,0.02855,65.84,66.86,0.8467,0.8583,0.9816,3.5112,2382,161,0.0
41.15,3.3076,29.5,3.2827,0.2436,428,0.032024,63.38,64.1,0.593,0.7759,0.9681,3.3325,2382,418,0.0
37.02,4.0941,20.1,4.0936,0.9106,21,0.029112,63.21,61.4,0.5556,0.0975,0.9876,4.0945,2384,163,0.0
33.94,3.8707,22.2,3.8666,0.7275,60,0.028949,60.39,60.65,0.53,0.5461,0.9835,3.8748,2384,295,0.0
-39.24,3.2458,30.9,3.2453,0.5373,230,0.024667,105.64,101.69,0.3999,0.4638,1.0,3.2463,5770,222,1.0
71.05,3.3933,19.7,3.3895,0.711,98,0.027266,93.78,92.92,0.7596,0.2462,0.991,3.397,4634,350,1.0
16.11,3.0209,22.8,3.0119,0.2824,742,0.024185,94.04,95.89,0.1658,0.7628,0.9747,3.0299,4634,2193,1.0
-19.31,3.4331,30.7,3.4245,0.3778,13,0.026779,54.72,54.1,0.3327,0.8539,0.9862,3.4416,1605,159,0.0
-74.53,3.54,29.9,3.5379,0.4316,43,0.03025,53.16,55.31,1.4749,0.2599,0.9751,3.5422,1605,182,0.0
-20.99,3.3937,28.1,3.3808,0.3255,337,0.034394,48.67,49.66,0.4077,0.922,0.9266,3.4067,1147,546,0.0
-92.32,3.561,31.3,3.5598,0.4688,19,0.029896,60.51,59.64,1.3556,0.4724,0.9878,3.5621,2954,182,0.0
29.32,3.8821,30.8,3.8807,0.7149,299,0.030476,61.69,62.56,0.4192,0.6765,0.9729,3.8835,2954,649,0.0
29.32,3.2569,8.6,3.2569,0.2152,107,0.033624,47.63,48.71,0.5956,0.4167,0.9653,3.257,1183,253,0.0
11.51,3.9519,22.4,3.948,0.8091,394,0.0335,47.89,47.74,0.2213,0.2092,0.9389,3.9559,1183,471,0.0
-9.89,3.6749,24.6,3.6499,0.5626,73,0.033749,55.52,56.53,0.1749,0.6025,0.9603,3.6999,1261,245,0.0
-34.67,3.5738,36.2,3.5457,0.4896,182,0.032732,54.19,54.79,0.6725,0.5128,0.9426,3.6019,1261,352,0.0
-53.38,3.2641,45.0,3.1966,0.5567,140,0.024506,97.19,99.2,0.5579,0.6687,0.9917,3.3315,4726,240,1.0
44.57,3.6645,32.8,3.6357,0.5609,119,0.026364,68.13,64.52,0.7155,0.3577,0.9588,3.6934,2391,500,0.0
49.26,3.9301,30.0,3.9194,0.7789,535,0.032443,61.76,63.58,0.7872,0.6011,0.9391,3.9409,2391,2089,0.0
-34.7,3.3955,27.7,3.3908,0.6977,240,0.025211,90.42,85.12,0.4072,0.7668,0.99,3.4003,4105,267,1.0
-38.29,3.3652,28.8,3.3509,0.6628,646,0.025338,85.51,87.02,0.4694,0.8012,0.9831,3.3795,4105,587,1.0
28.35,3.7911,23.5,3.7837,0.6694,433,0.029599,44.55,45.55,0.5619,0.5546,0.9534,3.7985,1798,539,0.0
-20.02,3.6842,42.0,3.6752,0.5723,146,0.030887,49.72,51.27,0.3786,0.5255,0.9717,3.6931,2674,281,0.0
-18.73,3.6541,19.3,3.6488,0.5425,869,0.030567,48.34,51.75,0.3608,0.8416,0.9639,3.6595,2674,1162,0.0
-23.59,3.6359,31.1,3.6071,0.5123,91,0.03113,43.98,43.03,0.5393,0.5376,0.985,3.6646,1851,182,0.0
12.22,3.4884,25.4,3.4787,0.3974,271,0.032165,41.51,43.69,0.271,0.754,0.9632,3.4981,1851,367,0.0
28.42,3.4298,45.0,3.4282,0.3378,91,0.032066,43.63,42.34,0.6692,0.6757,0.9602,3.4314,1273,107,0.0
-22.4,3.1748,31.2,3.1605,0.1657,34,0.031465,53.97,52.78,0.4095,0.905,0.9731,3.1891,984,168,0.0
17.23,3.7509,22.9,3.7474,0.6065,323,0.036084,49.31,49.63,0.3106,0.3063,0.9125,3.7545,984,746,0.0
-31.16,3.5537,19.7,3.4978,0.9083,211,0.023315,79.18,80.44,0.3926,0.0624,0.9992,3.6096,5693,261,1.0
17.88,3.3386,30.9,3.3271,0.6339,710,0.026894,81.01,84.67,0.2192,0.4471,0.9844,3.35,5693,775,1.0
-13.99,3.4059,21.8,3.39,0.6887,250,0.025934,50.71,52.29,0.2472,0.2529,0.9754,3.4219,2523,573,1.0
13.38,3.8278,11.1,3.8269,0.6932,31,0.026245,54.89,52.94,0.2662,0.0739,0.9835,3.8288,1979,169,0.0
-33.76,3.8407,28.4,3.822,0.686,965,0.032219,48.94,48.6,0.6776,0.6709,0.9065,3.8594,1979,2213,0.0
-48.52,3.6449,35.1,3.6377,0.5406,101,0.032255,47.75,47.47,0.981,0.3713,0.9406,3.6521,1222,543,0.0
-5.6,3.9657,18.4,3.9584,0.7971,402,0.033314,46.77,45.28,0.1164,0.7277,0.8983,3.973,1222,1971,0.0
19.6,3.9447,34.1,3.9192,0.7933,392,0.036421,55.23,53.75,0.3361,0.2202,0.9044,3.9702,1293,1236,0.0
-14.65,3.6362,27.8,3.5816,0.5301,1002,0.037861,52.02,52.32,0.2326,0.4701,0.8515,3.6908,1293,2962,0.0
-16.15,3.5805,21.1,3.5586,0.4651,276,0.032519,44.66,44.73,0.3602,0.4561,0.9689,3.6024,1720,325,0.0
-35.91,3.4807,21.8,3.4664,0.7714,167,0.026735,88.53,82.83,0.4199,0.2512,0.9958,3.495,4155,298,1.0
-39.97,3.5476,27.6,3.5463,0.8638,828,0.02477,82.12,82.19,0.4575,0.0915,0.9759,3.549,4155,871,1.0
29.6,3.5763,33.4,3.5736,0.4832,27,0.027051,51.88,50.29,0.5645,0.4515,0.9566,3.579,896,168,0.0
-29.23,3.4526,37.3,3.4464,0.3772,75,0.030047,49.22,49.57,0.5682,0.7125,0.9448,3.4589,896,223,0.0
19.98,3.535,41.9,3.5152,0.43,564,0.032519,38.31,40.87,0.4531,0.6275,0.8969,3.5547,1933,896,0.0
-16.29,3.281,43.7,3.2809,0.5594,20,0.024595,76.48,77.91,0.2401,0.2968,0.9896,3.2812,3519,113,1.0
-36.18,3.5806,35.2,3.5688,0.9395,142,0.029554,78.38,78.44,0.5222,0.5668,0.9846,3.5924,3519,526,1.0
-14.42,3.2533,31.7,3.2525,0.5532,219,0.022912,74.61,73.24,0.1865,0.6716,0.9883,3.2541,2867,688,1.0
24.78,3.2832,30.9,3.246,0.5523,681,0.028212,73.44,72.05,0.3353,0.4939,0.9572,3.3205,2867,1805,1.0
-20.18,3.5235,25.8,3.5011,0.445,264,0.031919,43.59,42.2,0.4688,0.3672,0.9615,3.5459,1466,355,0.0
-7.65,3.5092,22.8,3.5012,0.4336,12,0.031279,49.08,48.07,0.1546,0.3921,0.9717,3.5172,1282,177,0.0
-12.13,3.9478,29.9,3.947,0.7905,161,0.029216,46.07,46.04,0.2325,0.307,0.953,3.9487,1282,313,0.0
-36.53,2.9888,24.2,2.9796,0.199,71,0.026889,62.95,62.18,0.5421,0.4651,0.9842,2.998,2778,235,1.0
-39.69,3.4726,33.4,3.4584,0.7705,253,0.022741,61.18,60.58,0.6176,0.251,0.9755,3.4868,2778,455,1.0
25.63,3.8104,38.6,3.8046,0.7032,183,0.03522,47.92,46.27,0.5012,0.4702,0.9315,3.8162,940,206,0.0
23.83,3.9343,37.2,3.9203,0.7609,0,0.026434,62.65,62.14,0.3575,0.3866,0.9942,3.9483,2497,40,0.0
-12.15,3.3124,8.6,3.2846,0.2687,73,0.028683,67.05,61.49,0.1946,0.5534,0.9911,3.3402,2497,89,0.0
14.81,3.426,34.5,3.4252,0.7229,49,0.028435,60.44,58.37,0.2489,0.504,0.9895,3.4269,3310,219,1.0
25.87,3.256,21.5,3.2559,0.5687,211,0.028593,60.51,59.81,0.3987,0.5378,0.9915,3.2561,3310,592,1.0
-37.02,3.9858,17.3,3.9794,0.8347,29,0.031188,49.83,49.72,0.7295,0.2223,0.9828,3.9923,1001,63,0.0
-7.86,3.945,19.7,3.9363,0.7892,78,0.030296,51.3,49.88,0.1423,0.05,0.9723,3.9538,1001,118,0.0
-111.26,3.8271,31.1,3.8233,0.6889,747,0.036068,50.68,50.56,1.9066,0.5927,0.9037,3.831,2439,2574,0.0
17.42,3.4108,40.2,3.4103,0.6742,8,0.026042,98.53,99.4,0.1639,0.5789,0.9978,3.4112,4939,129,1.0
38.73,3.3425,34.5,3.3079,0.6415,47,0.029164,103.19,101.29,0.3811,0.2144,0.9978,3.377,4939,165,1.0
-21.24,3.0837,31.6,3.0827,0.3424,65,0.025394,103.26,99.55,0.2154,0.5408,0.9983,3.0847,4939,181,1.0